{
  "resourceType": "Bundle",
  "id": "SR-full-conforming-ELR-report",
  "meta": {
    "profile": [
      "http://hl7.org/fhir/us/ph-library/StructureDefinition/us-ph-reporting-bundle"
    ]
  },
  "type": "message",
  "timestamp": "2020-11-20T11:15:33-10:00",
  "entry": [
    {
      "fullUrl": "urn:uuid:0003e628-2a6d-4d73-a854-b5a7b7c0b634",
      "resource": {
        "resourceType": "MessageHeader",
        "id": "16e3e628-2a6d-4d73-a854-b5a7b7c0b634",
        "meta": {
          "profile": [
            "http://hl7.org/fhir/us/ph-library/StructureDefinition/us-ph-messageheader"
          ]
        },
        "extension": [
          {
            "url": "http://hl7.org/fhir/us/ph-library/StructureDefinition/us-ph-data-encrypted-extension",
            "valueBoolean": false
          },
          {
            "url": "http://hl7.org/fhir/us/ph-library/StructureDefinition/us-ph-message-processing-category-extension",
            "valueCode": "notification"
          }
        ],
        "eventCoding": {
          "system": "http://hl7.org/fhir/us/ph-library/CodeSystem/us-ph-message-events",
          "code": "elr-message"
        },
        "destination": [
          {
            "name": "PRIME ReportStream",
            "endpoint": "https://prime.cdc.gov/api/reports?option=SkipInvalidItems"
          }
        ],
        "sender": {
          "reference": "urn:uuid:719ec8ad-cf59-405a-9832-c4065945c130"
        },
        "source": {
          "extension": [
            {
              "url": "https://reportstream.cdc.gov/fhir/StructureDefinition/software-binary-id",
              "valueString": "0fe02a5"
            },
            {
              "url": "https://reportstream.cdc.gov/fhir/StructureDefinition/software-install-date",
              "valueInstant": "2024-02-23T15:13:35Z"
            },
            {
              "url": "https://reportstream.cdc.gov/fhir/StructureDefinition/software-vendor-org",
              "valueReference": {
                "reference": "urn:uuid:07640c5d-87cd-488b-9343-a226c5166539"
              }
            }
          ],
          "software": "PRIME SimpleReport",
          "version": "0fe02a5",
          "endpoint": "https://simplereport.gov"
        },
        "reason": {
          "coding": [
            {
              "system": "http://hl7.org/fhir/us/ph-library/CodeSystem/us-ph-codesystem-triggerdefinition-namedevents",
              "code": "new-labresult"
            }
          ]
        },
        "focus": [
          {
            "reference": "urn:uuid:bf58460f-6f26-4844-8edb-5ab6f98a0385"
          },
          {
            "reference": "urn:uuid:3268e1d6-cb84-459b-8640-e7930369d34d"
          }
        ]
      }
    },
    {
      "fullUrl": "urn:uuid:0013e628-2a6d-4d73-a854-b5a7b7c0b634",
      "resource": {
        "resourceType": "Bundle",
        "identifier": {
          "value": "3268e1d6-cb84-459b-8640-e7930369d34d"
        },
        "meta": {
          "profile": [
            "http://hl7.org/fhir/us/ph-library/StructureDefinition/us-ph-content-bundle"
          ]
        },
        "type": "collection",
        "timestamp": "2024-02-26T21:40:38.512Z",
        "entry": [
          {
            "fullUrl": "urn:uuid:bf58460f-6f26-4844-8edb-5ab6f98a0385",
            "resource": {
              "resourceType": "Provenance",
              "id": "bf58460f-6f26-4844-8edb-5ab6f98a0385",
              "recorded": "2024-02-26T21:40:38.512Z",
              "activity": {
                "coding": [
                  {
                    "system": "http://terminology.hl7.org/CodeSystem/v2-0003",
                    "code": "R01",
                    "display": "ORU/ACK - Unsolicited transmission of an observation message"
                  }
                ]
              },
              "agent": [
                {
                  "who": {
                    "reference": "urn:uuid:719ec8ad-cf59-405a-9832-c4065945c130"
                  }
                }
              ],
              "target": [
                {
                  "reference": "urn:uuid:3268e1d6-cb84-459b-8640-e7930369d34d"
                }
              ]
            }
          },
          {
            "fullUrl": "urn:uuid:3268e1d6-cb84-459b-8640-e7930369d34d",
            "resource": {
              "resourceType": "DiagnosticReport",
              "id": "3268e1d6-cb84-459b-8640-e7930369d34d",
              "identifier": [
                {
                  "value": "3268e1d6-cb84-459b-8640-e7930369d34d"
                }
              ],
              "basedOn": [
                {
                  "reference": "urn:uuid:66e1f9cb-aa34-48a8-80b7-495b7d0c3a9f"
                }
              ],
              "status": "final",
              "code": {
                "coding": [
                  {
                    "system": "http://loinc.org",
                    "code": "94531-1"
                  }
                ]
              },
              "subject": {
                "reference": "urn:uuid:10083d1d-dc8b-4ea0-91fa-8744cf0f013b"
              },
              "effectiveDateTime": "2024-02-26T21:25:38+00:00",
              "issued": "2024-02-26T21:40:38+00:00",
              "specimen": [
                {
                  "reference": "urn:uuid:baf09fcd-95d1-48d7-9b12-3f52d57d69f4"
                }
              ],
              "result": [
                {
                  "reference": "urn:uuid:f08d453c-b80d-4fe3-83cd-c2fc55d9afeb"
                }
              ]
            }
          },
          {
            "fullUrl": "urn:uuid:10083d1d-dc8b-4ea0-91fa-8744cf0f013b",
            "resource": {
              "resourceType": "Patient",
              "id": "10083d1d-dc8b-4ea0-91fa-8744cf0f013b",
              "extension": [
                {
                  "url": "http://ibm.com/fhir/cdm/StructureDefinition/local-race-cd",
                  "valueCodeableConcept": {
                    "coding": [
                      {
                        "system": "http://terminology.hl7.org/CodeSystem/v3-Race",
                        "code": "2131-1"
                      }
                    ],
                    "text": "other"
                  }
                },
                {
                  "url": "https://reportstream.cdc.gov/fhir/StructureDefinition/ethnic-group",
                  "valueCodeableConcept": {
                    "coding": [
                      {
                        "system": "http://terminology.hl7.org/CodeSystem/v2-0189",
                        "code": "H",
                        "display": "Hispanic or Latino"
                      }
                    ],
                    "text": "Hispanic or Latino"
                  }
                },
                {
                  "url": "http://hl7.org/fhir/StructureDefinition/individual-genderIdentity",
                  "valueCoding": {
                    "system": "http://snomed.info/sct",
                    "code": "446141000124107",
                    "display": "Identifies as female gender (finding)"
                  }
                }
              ],
              "identifier": [
                {
                  "value": "10083d1d-dc8b-4ea0-91fa-8744cf0f013b"
                }
              ],
              "name": [
                {
                  "family": "Wolf",
                  "given": [
                    "Karolann"
                  ]
                }
              ],
              "telecom": [
                {
                  "system": "phone",
                  "value": "(800) 232 4636",
                  "use": "mobile"
                }
              ],
              "gender": "female",
              "birthDate": "1970-02-01",
              "address": [
                {
                  "line": [
                    "894 wagon dr"
                  ],
                  "city": "Brooklyn",
                  "state": "TX",
                  "postalCode": "79928",
                  "country": "USA"
                }
              ],
              "managingOrganization": {
                "reference": "urn:uuid:719ec8ad-cf59-405a-9832-c4065945c130"
              }
            }
          },
          {
            "fullUrl": "urn:uuid:719ec8ad-cf59-405a-9832-c4065945c130",
            "resource": {
              "resourceType": "Organization",
              "id": "719ec8ad-cf59-405a-9832-c4065945c130",
              "identifier": [
                {
                  "use": "official",
                  "type": {
                    "coding": [
                      {
                        "system": "http://terminology.hl7.org/CodeSystem/v2-0301",
                        "code": "CLIA"
                      }
                    ]
                  },
                  "value": "12D4567890"
                }
              ],
              "name": "Testing Lab",
              "telecom": [
                {
                  "system": "phone",
                  "value": "(530) 867 5309",
                  "use": "work"
                }
              ],
              "address": [
                {
                  "line": [
                    "123 Beach Way"
                  ],
                  "city": "Houston",
                  "state": "TX",
                  "postalCode": "77001",
                  "country": "USA"
                }
              ]
            }
          },
          {
            "fullUrl": "urn:uuid:ee29ccf5-631d-4b35-a6d4-30a61c0eb8d9",
            "resource": {
              "resourceType": "Practitioner",
              "id": "ee29ccf5-631d-4b35-a6d4-30a61c0eb8d9",
              "identifier": [
                {
                  "system": "http://hl7.org/fhir/sid/us-npi",
                  "value": "1245319599"
                }
              ],
              "name": [
                {
                  "family": "McTester",
                  "given": [
                    "Phil"
                  ]
                }
              ],
              "telecom": [
                {
                  "system": "phone",
                  "value": "(530) 867 5309",
                  "use": "work"
                }
              ],
              "address": [
                {
                  "line": [
                    "321 Ocean Drive"
                  ],
                  "city": "Houston",
                  "state": "TX",
                  "postalCode": "77001",
                  "country": "USA"
                }
              ]
            }
          },
          {
            "fullUrl": "urn:uuid:baf09fcd-95d1-48d7-9b12-3f52d57d69f4",
            "resource": {
              "resourceType": "Specimen",
              "id": "baf09fcd-95d1-48d7-9b12-3f52d57d69f4",
              "identifier": [
                {
                  "value": "18881efc-dfee-49f5-89ef-04dd0f4a96dc"
                }
              ],
              "type": {
                "coding": [
                  {
                    "system": "http://snomed.info/sct",
                    "code": "433801000124107"
                  }
                ],
                "text": "Nasopharyngeal and oropharyngeal swab"
              },
              "subject": {
                "reference": "urn:uuid:10083d1d-dc8b-4ea0-91fa-8744cf0f013b"
              },
              "receivedTime": "2024-02-26T21:25:38+00:00",
              "collection": {
                "collectedDateTime": "2024-02-26T21:25:38+00:00",
                "bodySite": {
                  "coding": [
                    {
                      "system": "http://snomed.info/sct",
                      "code": "87100004"
                    }
                  ],
                  "text": "Topography unknown (body structure)"
                }
              }
            }
          },
          {
            "fullUrl": "urn:uuid:66e1f9cb-aa34-48a8-80b7-495b7d0c3a9f",
            "resource": {
              "resourceType": "ServiceRequest",
              "id": "66e1f9cb-aa34-48a8-80b7-495b7d0c3a9f",
              "extension": [
                {
                  "url": "https://reportstream.cdc.gov/fhir/StructureDefinition/order-control",
                  "valueCodeableConcept": {
                    "coding": [
                      {
                        "system": "http://terminology.hl7.org/CodeSystem/v2-0119",
                        "code": "RE"
                      }
                    ]
                  }
                },
                {
                  "url": "https://reportstream.cdc.gov/fhir/StructureDefinition/order-effective-date",
                  "valueDateTime": "2024-02-26T21:40:38+00:00"
                }
              ],
              "status": "completed",
              "intent": "order",
              "code": {
                "coding": [
                  {
                    "system": "http://loinc.org",
                    "code": "94531-1"
                  }
                ]
              },
              "subject": {
                "reference": "urn:uuid:10083d1d-dc8b-4ea0-91fa-8744cf0f013b"
              },
              "requester": {
                "reference": "urn:uuid:e476cc45-7711-4a24-9e5e-c28be0d10b44"
              },
              "performer": [
                {
                  "reference": "urn:uuid:719ec8ad-cf59-405a-9832-c4065945c130"
                }
              ],
              "supportingInfo": [
                {
                  "reference": "urn:uuid:f9d62f1e-664f-3d44-9af7-d8002aecc319"
                },
                {
                  "reference": "urn:uuid:c890b146-7cd8-3d26-ac8e-ae22b89996ec"
                },
                {
                  "reference": "urn:uuid:6ba7c37f-fb67-32df-91d4-0fdbf7b71956"
                },
                {
                  "reference": "urn:uuid:dfbd2c06-0bb9-3b87-952e-cbeb213f2f43"
                },
                {
                  "reference": "urn:uuid:d750dcec-a11a-3202-b734-b291c798ae20"
                }
              ]
            }
          },
          {
            "fullUrl": "urn:uuid:989c07bb-de54-4205-b38e-a5b4b08595d7",
            "resource": {
              "resourceType": "Device",
              "id": "989c07bb-de54-4205-b38e-a5b4b08595d7",
              "identifier": [
                {
                  "value": "The 3EO Cube_3EO Health, Inc."
                },
                {
                  "type": {
                    "coding": [
                      {
                        "code": "MNI"
                      }
                    ]
                  }
                }
              ],
              "manufacturer": "3EO Health, Inc.",
              "deviceName": [
                {
                  "name": "3EO Health COVID-19 Test",
                  "type": "model-name"
                }
              ]
            }
          },
          {
            "fullUrl": "urn:uuid:e476cc45-7711-4a24-9e5e-c28be0d10b44",
            "resource": {
              "resourceType": "PractitionerRole",
              "id": "e476cc45-7711-4a24-9e5e-c28be0d10b44",
              "practitioner": {
                "reference": "urn:uuid:ee29ccf5-631d-4b35-a6d4-30a61c0eb8d9"
              },
              "organization": {
                "reference": "urn:uuid:719ec8ad-cf59-405a-9832-c4065945c130"
              }
            }
          },
          {
            "fullUrl": "urn:uuid:07640c5d-87cd-488b-9343-a226c5166539",
            "resource": {
              "resourceType": "Organization",
              "id": "07640c5d-87cd-488b-9343-a226c5166539",
              "name": "SimpleReport"
            }
          },
          {
            "fullUrl": "urn:uuid:f08d453c-b80d-4fe3-83cd-c2fc55d9afeb",
            "resource": {
              "resourceType": "Observation",
              "id": "f08d453c-b80d-4fe3-83cd-c2fc55d9afeb",
              "status": "final",
              "code": {
                "coding": [
                  {
                    "system": "http://loinc.org",
                    "code": "95406-5"
                  }
                ],
                "text": "COVID-19"
              },
              "subject": {
                "reference": "urn:uuid:10083d1d-dc8b-4ea0-91fa-8744cf0f013b"
              },
              "issued": "2024-02-26T21:40:38.428Z",
              "performer": [
                {
                  "reference": "urn:uuid:719ec8ad-cf59-405a-9832-c4065945c130"
                }
              ],
              "valueCodeableConcept": {
                "coding": [
                  {
                    "system": "http://snomed.info/sct",
                    "code": "260373001",
                    "display": "Detected"
                  }
                ]
              },
              "interpretation": [
                {
                  "coding": [
                    {
                      "system": "http://terminology.hl7.org/CodeSystem/v2-0078",
                      "code": "A",
                      "display": "Abnormal"
                    }
                  ]
                }
              ],
              "method": {
                "extension": [
                  {
                    "url": "https://reportstream.cdc.gov/fhir/StructureDefinition/testkit-name-id",
                    "valueCoding": {
                      "code": "3EO Health COVID-19 Test_3EO Health, Inc."
                    }
                  }
                ],
                "coding": [
                  {
                    "display": "3EO Health COVID-19 Test"
                  }
                ]
              },
              "specimen": {
                "reference": "urn:uuid:baf09fcd-95d1-48d7-9b12-3f52d57d69f4"
              },
              "device": {
                "reference": "urn:uuid:989c07bb-de54-4205-b38e-a5b4b08595d7"
              }
            }
          },
          {
            "fullUrl": "urn:uuid:f9d62f1e-664f-3d44-9af7-d8002aecc319",
            "resource": {
              "resourceType": "Observation",
              "id": "f9d62f1e-664f-3d44-9af7-d8002aecc319",
              "identifier": [
                {
                  "use": "official",
                  "type": {
                    "coding": [
                      {
                        "system": "http://loinc.org",
                        "code": "81959-9",
                        "display": "Public health laboratory ask at order entry panel"
                      }
                    ]
                  }
                }
              ],
              "status": "final",
              "code": {
                "coding": [
                  {
                    "system": "http://loinc.org",
                    "code": "95419-8",
                    "display": "Has symptoms related to condition of interest"
                  }
                ],
                "text": "Has symptoms related to condition of interest"
              },
              "subject": {
                "reference": "urn:uuid:10083d1d-dc8b-4ea0-91fa-8744cf0f013b"
              },
              "valueCodeableConcept": {
                "coding": [
                  {
                    "system": "http://terminology.hl7.org/ValueSet/v2-0136",
                    "code": "Y",
                    "display": "Yes"
                  }
                ]
              }
            }
          },
          {
            "fullUrl": "urn:uuid:c890b146-7cd8-3d26-ac8e-ae22b89996ec",
            "resource": {
              "resourceType": "Observation",
              "id": "c890b146-7cd8-3d26-ac8e-ae22b89996ec",
              "identifier": [
                {
                  "use": "official",
                  "type": {
                    "coding": [
                      {
                        "system": "http://loinc.org",
                        "code": "81959-9",
                        "display": "Public health laboratory ask at order entry panel"
                      }
                    ]
                  }
                }
              ],
              "status": "final",
              "code": {
                "coding": [
                  {
                    "system": "http://loinc.org",
                    "code": "11368-8",
                    "display": "Illness or injury onset date and time"
                  }
                ],
                "text": "Illness or injury onset date and time"
              },
              "subject": {
                "reference": "urn:uuid:10083d1d-dc8b-4ea0-91fa-8744cf0f013b"
              },
              "valueDateTime": "2024-02-19"
            }
          },
          {
            "fullUrl": "urn:uuid:6ba7c37f-fb67-32df-91d4-0fdbf7b71956",
            "resource": {
              "resourceType": "Observation",
              "id": "6ba7c37f-fb67-32df-91d4-0fdbf7b71956",
              "identifier": [
                {
                  "use": "official",
                  "type": {
                    "coding": [
                      {
                        "system": "http://loinc.org",
                        "code": "81959-9",
                        "display": "Public health laboratory ask at order entry panel"
                      }
                    ]
                  }
                }
              ],
              "status": "final",
              "code": {
                "coding": [
                  {
                    "system": "http://loinc.org",
                    "code": "82810-3",
                    "display": "Pregnancy status"
                  }
                ],
                "text": "Pregnancy status"
              },
              "subject": {
                "reference": "urn:uuid:10083d1d-dc8b-4ea0-91fa-8744cf0f013b"
              },
              "valueCodeableConcept": {
                "coding": [
                  {
                    "system": "http://snomed.info/sct",
                    "code": "77386006",
                    "display": "Pregnant"
                  }
                ]
              }
            }
          },
          {
            "fullUrl": "urn:uuid:dfbd2c06-0bb9-3b87-952e-cbeb213f2f43",
            "resource": {
              "resourceType": "Observation",
              "id": "dfbd2c06-0bb9-3b87-952e-cbeb213f2f43",
              "identifier": [
                {
                  "use": "official",
                  "type": {
                    "coding": [
                      {
                        "system": "http://loinc.org",
                        "code": "81959-9",
                        "display": "Public health laboratory ask at order entry panel"
                      }
                    ]
                  }
                }
              ],
              "status": "final",
              "code": {
                "coding": [
                  {
                    "system": "http://loinc.org",
                    "code": "95418-0",
                    "display": "Employed in a healthcare setting"
                  }
                ],
                "text": "Employed in a healthcare setting"
              },
              "subject": {
                "reference": "urn:uuid:10083d1d-dc8b-4ea0-91fa-8744cf0f013b"
              },
              "valueCodeableConcept": {
                "coding": [
                  {
                    "system": "http://terminology.hl7.org/ValueSet/v2-0136",
                    "code": "Y",
                    "display": "Yes"
                  }
                ]
              }
            }
          },
          {
            "fullUrl": "urn:uuid:d750dcec-a11a-3202-b734-b291c798ae20",
            "resource": {
              "resourceType": "Observation",
              "id": "d750dcec-a11a-3202-b734-b291c798ae20",
              "identifier": [
                {
                  "use": "official",
                  "type": {
                    "coding": [
                      {
                        "system": "http://loinc.org",
                        "code": "81959-9",
                        "display": "Public health laboratory ask at order entry panel"
                      }
                    ]
                  }
                }
              ],
              "status": "final",
              "code": {
                "coding": [
                  {
                    "system": "http://loinc.org",
                    "code": "95421-4",
                    "display": "Resides in a congregate care setting"
                  }
                ],
                "text": "Resides in a congregate care setting"
              },
              "subject": {
                "reference": "urn:uuid:10083d1d-dc8b-4ea0-91fa-8744cf0f013b"
              },
              "valueCodeableConcept": {
                "coding": [
                  {
                    "system": "http://terminology.hl7.org/ValueSet/v2-0136",
                    "code": "Y",
                    "display": "Yes"
                  }
                ]
              }
            }
          }
        ]
      }
    },
    {
      "fullUrl": "urn:uuid:719ec8ad-cf59-405a-9832-c4065945c130",
      "resource": {
        "resourceType": "Organization",
        "id": "719ec8ad-cf59-405a-9832-c4065945c130",
        "identifier": [
          {
            "use": "official",
            "type": {
              "coding": [
                {
                  "system": "http://terminology.hl7.org/CodeSystem/v2-0301",
                  "code": "CLIA"
                }
              ]
            },
            "value": "12D4567890"
          }
        ],
        "name": "Testing Lab",
        "telecom": [
          {
            "system": "phone",
            "value": "(530) 867 5309",
            "use": "work"
          }
        ],
        "address": [
          {
            "line": [
              "123 Beach Way"
            ],
            "city": "Houston",
            "state": "TX",
            "postalCode": "77001",
            "country": "USA"
          }
        ]
      }
    }
  ]
}